# wave transmission
6300.86 0
6331.06 0.0001
6360.71 0.0003
6390.9 0.0009
6421.09 0.0026
6451.28 0.004
6480.9 0.0039
6511.07 0.0038
6541.23 0.0044
6571.39 0.0059
6600.99 0.0085
6631.14 0.0133
6661.29 0.0218
6691.42 0.0368
6721.55 0.0613
6751.68 0.1009
6781.24 0.1635
6811.36 0.258
6841.46 0.3758
6871.57 0.4924
6901.66 0.5672
6931.75 0.5893
6961.83 0.5825
6991.91 0.5707
7021.98 0.5653
7052.05 0.5679
7082.11 0.5758
7112.16 0.5857
7142.2 0.5954
7172.24 0.6032
7202.28 0.6068
7232.3 0.6027
7262.32 0.5921
7292.34 0.5769
7322.34 0.5608
7352.35 0.5475
7382.34 0.5392
7412.33 0.5359
7442.31 0.5357
7472.28 0.5356
7502.25 0.5336
7532.21 0.5304
7562.72 0.5277
7592.67 0.5274
7622.61 0.5302
7652.54 0.5346
7682.47 0.5377
7712.94 0.5376
7742.86 0.533
7772.77 0.5261
7802.66 0.5189
7833.11 0.5131
7863 0.5081
7892.88 0.5035
7922.75 0.4981
7953.16 0.4912
7983.02 0.483
8012.87 0.4743
8043.27 0.4649
8073.1 0.4556
8103.48 0.4461
8133.31 0.4374
8163.12 0.4305
8193.48 0.4258
8223.28 0.4262
8253.62 0.4271
8283.41 0.4225
8313.74 0.4067
8343.51 0.375
8373.82 0.3243
8403.57 0.2578
8433.87 0.1838
8463.61 0.1203
8493.89 0.0743
8523.62 0.0454
8553.89 0.0287
8583.59 0.019
8613.85 0.0131
8644.09 0.0097
8673.78 0.0077
8704 0.0063
8734.22 0.0052
8763.89 0.0044
8794.09 0.0036
8824.28 0.0026
8854.47 0.0018
8884.1 0.0012
8914.27 0.0008
8944.44 0.0005
8974.59 0.0003
9004.19 0.0002
9034.33 0.0002
9064.46 0.0001
